# 1 wavelength (nm) # 2 Intensity (relative)
414.90828237909955 0.008873114463176623
420.9116175653141 0.006211180124223503
425.3585325180656 0.01685891748003554
428.69371873262924 0.030168589174800475
433.14063368538075 0.0479148181011535
434.91939966648135 0.07275953859804796
437.58754863813226 0.0905057675244012
440.03335186214565 0.10825199645075412
441.5897720956087 0.1464063886424135
442.03446359088383 0.17036379769299026
444.9249583101723 0.19254658385093182
445.5919955530851 0.21029281277728484
446.7037242912729 0.2679680567879327
447.5931072818232 0.3229813664596274
448.70483602001116 0.3460514640638864
449.816564758199 0.3771073646850045
450.48360200111176 0.40816326530612246
452.0400222345748 0.4365572315882875
452.7070594774875 0.4676131322094056
453.15175097276267 0.49689440993788825
454.26347971095055 0.5226264418811004
454.4858254585881 0.5900621118012424
455.597554196776 0.6956521739130436
456.7092829349639 0.73114463176575
457.5986659255142 0.7666370896184562
458.2657031684269 0.8047914818101154
459.3774319066148 0.8358473824312335
459.82212340188994 0.873114463176575
460.9338521400778 0.9006211180124225
462.7126181211784 0.9396628216503994
464.93607559755424 0.9911268855368236
467.82657031684266 0.9627329192546585
469.8276820455809 0.9290150842945875
471.6064480266815 0.8376220053238688
473.16286826014453 0.7976929902395742
473.82990550305726 0.7453416149068324
475.60867148415787 0.6965394853593612
476.49805447470817 0.6512866015971607
476.72040022234575 0.5625554569653949
478.7215119510839 0.5146406388642415
480.9449694274597 0.45696539485359366
482.7237354085603 0.3895297249334517
484.9471928849361 0.3327417923691216
487.17065036131186 0.26619343389529737
489.83879933296276 0.21739130434782616
493.1739855475264 0.16770186335403736
496.0644802668149 0.12599822537710736
500.0667037242913 0.08163265306122458
505.6253474152307 0.05501330967169493
514.9638688160089 0.022182786157941337
527.1928849360756 0.010647737355812037
